Folder: repo.haposan.com/activeresearchdata/TMDCs/photoelectric-effect_MoS2_ASTAR-NUS_2024-2025/Raman_spectroscopy

Note: README.md
# Jupyter Book for repo.haposan.com site

How to build this book
---
Make sure you have installed packages in `requirements.txt`, then run `make` to build the book in HTML format.

```shell
pip install -r requirements.txt
make
```

The command will then build HTML in the `./_build/html/index.html`, which you can open in your localhost.

File: 20241202_MoS2_Region B_532nm.txt
#Wave		#Intensity
1284.03	413.528
1279.48	417.707
1274.93	408.626
1270.38	425.901
1265.82	361.98
1261.26	392.415
1256.7	361.467
1252.13	359.022
1247.56	371.892
1242.99	327.906
1238.41	364.808
1233.83	329.621
1229.25	381.738
1224.66	366.205
1220.07	394.259
1215.48	350.442
1210.88	374.116
1206.29	328.202
1201.68	364.888
1197.08	336.409
1192.47	338.334
1187.85	338.089
1183.24	355.168
1178.62	352.746
1173.99	315.726
1169.37	358.714
1164.74	364.93
1160.11	336.612
1155.47	342.834
1150.83	318.882
1146.19	331.566
1141.54	296.899
1136.89	346.127
1132.23	332.983
1127.58	373.524
1122.92	347.507
1118.25	334.389
1113.59	370.554
1108.91	316.771
1104.24	374.283
1099.56	271.421
1094.88	320.337
1090.2	356.377
1085.51	339.052
1080.82	347.323
1076.12	281.058
1071.42	317.017
1066.72	299.772
1062.02	329.29
1057.3	320.552
1052.59	330.918
1047.88	334.909
1043.16	313.477
1038.43	306.892
1033.71	329.925
1028.97	355.037
1024.24	308.312
1019.5	337.621
1014.76	358.452
1010.02	303.401
1005.27	349.49
1000.52	317.669
995.762	369.983
991.002	363.401
986.238	352.631
981.473	350.267
976.703	333.235
971.93	305.757
967.152	357.841
962.371	332.476
957.586	315.508
952.799	294.389
948.006	327.546
943.211	314.788
938.412	333.297
933.609	318.472
928.803	326.549
923.992	369.945
919.178	326.051
914.361	309.2
909.539	367.024
904.715	327.376
899.887	318.844
895.055	335.15
890.219	336.961
885.379	318.112
880.535	286.907
875.688	305.25
870.836	323.564
865.982	333.612
861.125	314.837
856.262	298.145
851.396	343.117
846.527	322.324
841.654	350.796
836.777	366.925
831.896	329.774
827.012	282.446
822.123	347.672
817.23	320.838
812.336	322.633
807.436	387.678
802.533	344.563
797.625	346.335
792.715	348.103
787.799	353.937
782.881	355.696
777.959	361.514
773.033	371.382
768.104	358.928
763.17	389.044
758.232	380.645
753.291	368.211
748.346	365.905
743.396	377.741
738.443	391.578
733.486	375.139
728.525	352.68
723.561	404.764
718.594	388.353
713.621	404.137
708.645	351.587
703.666	315.179
698.682	339.006
693.693	362.795
688.703	350.496
683.707	290.185
678.707	369.948
673.705	313.712
668.697	321.454
663.688	315.219
658.672	340.889
653.652	338.631
648.631	312.492
643.604	328.159
638.574	337.84
633.539	323.676
628.5	353.186
623.459	386.615
618.412	392.256
613.361	391.949
608.309	350.105
603.25	415.054
598.188	387.081
593.121	473.605
588.051	421.967
582.979	455.131
577.9	448.868
572.818	472.122
567.732	469.786
562.643	447.812
557.549	404.284
552.449	409.85
547.348	419.325
542.242	373.963
537.133	389.319
532.018	402.697
526.9	373.08
521.777	694.826
516.652	436.849
511.521	372.198
506.387	362.168
501.25	379.392
496.107	357.708
490.961	339.942
485.811	308.617
480.656	343.283
475.496	333.321
470.334	377.593
465.168	390.838
459.996	431.127
454.82	540.895
449.643	619.604
444.459	611.396
439.271	684.141
434.08	662.414
428.885	592.619
423.684	617.139
418.48	585.91
413.271	760.114
408.061	1476.82
402.844	2985.76
397.623	1811.47
392.396	811.255
387.168	577.364
381.936	844.337
376.697	1357.11
371.455	1521.94
366.209	1011.9
360.959	727.373
355.705	544.138
350.447	498.074
345.184	472.977
339.916	474.492
334.645	472.211
329.369	458.564
324.09	416.538
318.805	402.956
313.516	423.421
308.223	368.303
302.926	409.521
297.625	392.216
292.318	386.243
287.008	361.453
281.693	406.301
276.375	402.209
271.051	354.93
265.725	371.526
260.391	382.469
255.055	354.054
249.715	340.659
244.369	405.835
239.02	396.156
233.664	399.561
228.307	427.213
222.943	445.498
217.576	480.514
212.203	459.643
206.826	518.758
201.445	510.893
196.061	458.491
190.67	485.926
185.275	515.168
179.877	499.922
174.473	525.401
169.064	452.868
163.652	456.179
158.234	448.411
152.812	497.812
147.385	510.284
141.955	471.197
136.52	468.956
131.078	472.231
125.633	429.601
120.184	432.901
114.729	271.247
109.27	170.299
103.805	78.6726
98.3359	60.3245
92.8633	0.000000
87.3848	9.124249
81.9023	10.9396
76.4141	38.2552
70.9219	0.000000
65.4258	10.911
59.9238	21.8029
54.416	14.5225
48.9043	10.8823
43.3887	25.3696
37.8672	9.052575
32.3398	-3.617825
26.8086	48.7973
21.2734	32.5026
15.7324	10.8246
12.959	-3.606574